File: data/material_properties/kapton_optical_properties.csv
#Data collected from:
# - Smith & Loewenstein 1975 (28.6-182um)
# - Sahin et al. 2019 (160-3000um)

Wavenumber_sigma_cm-1,Refractive_index_n,Absorption_alpha_cm-1
3.33333,1.848,0.0230782
3.34448,1.84808,0.0237329
3.3557,1.84815,0.0243919
3.367,1.84823,0.0250553
3.37838,1.84831,0.0257233
3.38983,1.84838,0.0263957
3.40136,1.84846,0.0270728
3.41297,1.84854,0.0277544
3.42466,1.84861,0.0284408
3.43643,1.84869,0.0291318
3.44828,1.84877,0.0298277
3.46021,1.84884,0.0305283
3.47222,1.84892,0.0312338
3.48432,1.849,0.0319442
3.4965,1.84908,0.0326596
3.50877,1.84915,0.03338
3.52113,1.84923,0.0341055
3.53357,1.84931,0.0348361
3.5461,1.84938,0.0355719
3.55872,1.84946,0.0363129
3.57143,1.84954,0.0370592
3.58423,1.84961,0.0378109
3.59712,1.84969,0.0385679
3.61011,1.84977,0.0393305
3.62319,1.84985,0.0400985
3.63636,1.84992,0.0408722
3.64964,1.85,0.0416515
3.663,1.85008,0.0424365
3.67647,1.85015,0.0432273
3.69004,1.85023,0.0440239
3.7037,1.85031,0.0448264
3.71747,1.85038,0.0456349
3.73134,1.85046,0.0464494
3.74532,1.85054,0.0472698
3.7594,1.85061,0.0480966
3.77358,1.85069,0.0489297
3.78788,1.85077,0.049769
3.80228,1.85085,0.0506148
3.81679,1.85092,0.051467
3.83142,1.851,0.0523257
3.84615,1.85108,0.053191
3.861,1.85115,0.054063
3.87597,1.85123,0.0549418
3.89105,1.85131,0.0558274
3.90625,1.85138,0.05672
3.92157,1.85146,0.0576195
3.93701,1.85154,0.0585261
3.95257,1.85162,0.0594399
3.96825,1.85169,0.060361
3.98406,1.85177,0.0612893
4,1.85185,0.0622251
4.01606,1.85192,0.0631685
4.03226,1.852,0.0641189
4.04858,1.85208,0.0650775
4.06504,1.85215,0.0660439
4.08163,1.85216,0.0670182
4.09836,1.85211,0.0680005
4.11523,1.85206,0.0689909
4.13223,1.85201,0.0699895
4.14938,1.85195,0.0709963
4.16667,1.8519,0.0720116
4.1841,1.85185,0.0730353
4.20168,1.8518,0.0740677
4.21941,1.85175,0.0751087
4.23729,1.85169,0.0761586
4.25532,1.85164,0.0772174
4.2735,1.85159,0.0782853
4.29185,1.85154,0.0793623
4.31034,1.85148,0.0804486
4.329,1.85143,0.0815443
4.34783,1.85138,0.082649
4.36681,1.85133,0.0837639
4.38596,1.85128,0.0848886
4.40529,1.85122,0.0860232
4.42478,1.85117,0.0871678
4.44444,1.85112,0.0883226
4.46429,1.85107,0.0894877
4.4843,1.85101,0.0906633
4.5045,1.85096,0.0918494
4.52489,1.85091,0.0930463
4.54545,1.85086,0.0942541
4.56621,1.85081,0.0954729
4.58716,1.85075,0.0967028
4.60829,1.8507,0.0979441
4.62963,1.85065,0.099197
4.65116,1.8506,0.100461
4.6729,1.85054,0.101738
4.69484,1.85049,0.103026
4.71698,1.85044,0.104326
4.73934,1.85039,0.105639
4.7619,1.85034,0.106964
4.78469,1.85028,0.108302
4.80769,1.85023,0.109652
4.83092,1.85018,0.111016
4.85437,1.85013,0.112393
4.87805,1.85007,0.113784
4.90196,1.85006,0.115188
4.92611,1.85004,0.116606
4.9505,1.85003,0.118038
4.97512,1.85002,0.119484
5.0,1.85001,0.120945
5.02513,1.85,0.12242
5.05051,1.84999,0.123911
5.07614,1.84998,0.125416
5.10204,1.84997,0.126937
5.12821,1.84996,0.128473
5.15464,1.84994,0.130026
5.18135,1.84993,0.131594
5.20833,1.84992,0.133178
5.2356,1.84991,0.134779
5.26316,1.8499,0.136397
5.29101,1.84989,0.138033
5.31915,1.84988,0.139894
5.34759,1.84987,0.142917
5.37634,1.84986,0.145973
5.40541,1.84984,0.149062
5.43478,1.84983,0.152185
5.46448,1.84982,0.155342
5.49451,1.84981,0.158533
5.52486,1.8498,0.16176
5.55556,1.84979,0.165022
5.58659,1.84978,0.168321
5.61798,1.84977,0.171657
5.64972,1.84975,0.175031
5.68182,1.84974,0.178443
5.71429,1.84982,0.181894
5.74713,1.84992,0.185385
5.78035,1.85003,0.188916
5.81395,1.85014,0.192488
5.84795,1.85024,0.196102
5.88235,1.85035,0.199759
5.91716,1.85046,0.203458
5.95238,1.85056,0.207202
5.98802,1.85067,0.210991
6.0241,1.85078,0.214825
6.06061,1.85088,0.218707
6.09756,1.85099,0.222635
6.13497,1.8511,0.226611
6.17284,1.8512,0.230636
6.21118,1.85131,0.234712
6.25,1.85142,0.238838
6.28931,1.85153,0.243016
6.32911,1.85163,0.247247
6.36943,1.85174,0.251532
6.41026,1.85185,0.255872
6.45161,1.85195,0.260268
6.49351,1.85206,0.264721
6.53595,1.85183,0.269232
6.57895,1.85152,0.273803
6.62252,1.85122,0.278434
6.66667,1.85091,0.283127
6.71141,1.85061,0.287883
6.75676,1.85031,0.292703
6.80272,1.85,0.297589
6.84932,1.8497,0.302541
6.89655,1.84939,0.307562
6.94444,1.84909,0.312653
6.99301,1.84879,0.317815
7.04225,1.84848,0.32305
7.0922,1.84818,0.328358
7.14286,1.84787,0.333743
7.19424,1.84757,0.339206
7.24638,1.84727,0.345175
7.29927,1.84696,0.352117
7.35294,1.84721,0.35916
7.40741,1.84761,0.366307
7.46269,1.84801,0.373561
7.5188,1.8484,0.380924
7.57576,1.8488,0.388399
7.63359,1.84919,0.395987
7.69231,1.84959,0.403693
7.75194,1.84998,0.411517
7.8125,1.85038,0.419464
7.87402,1.85078,0.427537
7.93651,1.85117,0.435738
8,1.85157,0.444069
8.06452,1.85196,0.452535
8.13008,1.85224,0.461139
8.19672,1.85188,0.469883
8.26446,1.85152,0.478774
8.33333,1.85116,0.487811
8.40336,1.8508,0.497
8.47458,1.85044,0.506345
8.54701,1.85009,0.51585
8.62069,1.84973,0.525519
8.69565,1.84937,0.535356
8.77193,1.84901,0.545365
8.84956,1.84865,0.555551
8.92857,1.84829,0.56592
9.00901,1.84851,0.576475
9.09091,1.84873,0.587223
9.17431,1.84895,0.598167
9.25926,1.84918,0.611108
9.34579,1.8494,0.626155
9.43396,1.84962,0.641487
9.52381,1.84984,0.657111
9.61538,1.85006,0.673034
9.70874,1.85023,0.689268
9.80392,1.85036,0.705819
9.90099,1.85048,0.722698
10.0,1.85061,0.739914
10.101,1.85073,0.757479
10.2041,1.85086,0.775403
10.3093,1.85098,0.793695
10.4167,1.8511,0.812369
10.5263,1.85123,0.831435
10.6383,1.85076,0.850908
10.7527,1.85016,0.870799
10.8696,1.84955,0.891122
10.989,1.84895,0.911893
11.1111,1.84835,0.933124
11.236,1.84774,0.957275
11.3636,1.8472,0.982465
11.4943,1.84781,1.00823
11.6279,1.84841,1.0346
11.7647,1.84901,1.06159
11.9048,1.84961,1.08922
12.0482,1.85022,1.11752
12.1951,1.85017,1.14651
12.3457,1.84942,1.17621
12.5,1.84866,1.20666
12.6582,1.84791,1.23787
12.8205,1.84715,1.26989
12.987,1.8465,1.30274
13.1579,1.8473,1.33715
13.3333,1.84809,1.37495
13.5135,1.84889,1.41378
13.6986,1.84968,1.45367
13.8889,1.84986,1.49467
14.0845,1.84953,1.53683
14.2857,1.8492,1.58019
14.4928,1.84886,1.6248
14.7059,1.84848,1.67073
14.9254,1.84804,1.71803
15.1515,1.8476,1.76823
15.3846,1.84716,1.82622
15.625,1.84806,1.88604
15.873,1.84907,1.94775
16.129,1.85008,2.01145
16.3934,1.84917,2.07724
16.6667,1.84734,2.14523
16.9492,1.84552,2.21552
17.2414,1.84614,2.29122
17.5439,1.84758,2.37061
17.8571,1.8488,2.45284
18.1818,1.84767,2.53806
18.5185,1.84654,2.62642
18.8679,1.84641,2.71813
19.2308,1.84683,2.81835
19.6078,1.84734,2.9258
20.0,1.84798,3.03754
20.4082,1.84753,3.15388
20.8333,1.84516,3.27503
21.2766,1.84487,3.40771
21.7391,1.84696,3.54883
22.2222,1.84589,3.69619
22.7273,1.84384,3.85028
23.2558,1.84548,4.00873
23.8095,1.8461,4.17308
24.3902,1.84563,4.34548
25,1.84336,4.52952
25.641,1.84443,4.73939
26.3158,1.84334,4.96028
27.027,1.84277,5.19059
27.7778,1.84452,5.42728
28.5714,1.84274,5.67752
29.4118,1.84211,5.95435
30.303,1.84153,6.25272
31.25,1.84102,6.56228
32.2581,1.83973,6.88333
33.3333,1.84062,7.23015
34.4828,1.8387,7.60426
35.7143,1.83937,7.95519
37.037,1.83772,8.3477
38.4615,1.83593,8.83836
40.0,1.83497,9.29454
41.6667,1.83417,9.83177
43.4783,1.83287,10.3143
45.4545,1.83131,10.7115
47.619,1.82921,11.2097
50,1.82601,11.6557
52.6316,1.82346,12.0613
55.5556,1.82088,12.3654
58.8235,1.81704,12.5274
60.0,1.77,3.1
62.5,1.81244,12.3395
65.0,1.781,7.5
70.0,1.784,7.5
75.0,1.785,7.8
80.0,1.787,9.5
85.0,1.793,8.3
90.0,1.797,9.5
95.0,1.806,16.0
100.0,1.804,23.4
105.0,1.808,32.2
110.0,1.805,42.2
115.0,1.804,49.3
120.0,1.806,51.6
125.0,1.805,59.1
130.0,1.815,71.3
135.0,1.811,84.8
140.0,1.82,108.8
145.0,1.808,146.3
150.0,1.793,153.5
155.0,1.792,171.1
160.0,1.755,219.6
165.0,1.738,254.5
170.0,1.723,202.1
175.0,1.709,128.2
180.0,1.716,102.3
185.0,1.723,97.5
190.0,1.726,97.5
195.0,1.73,94.5
200.0,1.73,102.4
205.0,1.726,102.2
210.0,1.725,88.9
215.0,1.726,72.9
220.0,1.729,70.4
225.0,1.723,61.4
230.0,1.737,60.5
235.0,1.743,59.2
240.0,1.749,66.1
245.0,1.758,80.1
250.0,1.758,96.1
255.0,1.745,155.9
260.0,1.733,372.3
265.0,1.721,126.0
270.0,1.712,113.9
275.0,1.716,85.2
280.0,1.723,65.3
285.0,1.728,57.8
290.0,1.73,51.1
295.0,1.733,44.5
300.0,1.734,39.5
305.0,1.736,38.1
310.0,1.739,39.2
315.0,1.74,42.4
320.0,1.743,48.9
325.0,1.742,54.6
330.0,1.745,53.6
335.0,1.746,48.4
340.0,1.748,48.8
345.0,1.751,42.5
350.0,1.754,40.0